pos,corr_resp,trials.thisRepN,trials.thisTrialN,trials.thisN,trials.thisIndex,trials_2.thisRepN,trials_2.thisTrialN,trials_2.thisN,trials_2.thisIndex,fixation.started,line.started,line_2.started,line_3.started,line_4.started,fixation.stopped,probe.started,key_resp.started,key_resp.keys,key_resp.corr,key_resp.rt,participant,session,date,expName,psychopyVersion,frameRate,
-50,x,0,0,0,0,,,,,119.67737539997324,120.63184350007214,120.63184350007214,120.63184350007214,120.63184350007214,120.6798042000737,121.62971789995208,121.62971789995208,x,1,0.43529989989474416,455576,001,2022-10-12_19h30.28.624,sequential leraning task,2022.2.4,60.025126527606204,
150,v,0,1,1,1,,,,,122.09872490004636,123.08156060008332,123.08156060008332,123.08156060008332,123.08156060008332,123.09638449992053,124.09395450004376,124.09395450004376,v,1,0.31883239978924394,455576,001,2022-10-12_19h30.28.624,sequential leraning task,2022.2.4,60.025126527606204,
50,c,0,2,2,2,,,,,124.44401360000484,125.44384950003587,125.44384950003587,125.44384950003587,125.44384950003587,125.44384950003587,126.44380420004018,126.44380420004018,c,1,0.4917246997356415,455576,001,2022-10-12_19h30.28.624,sequential leraning task,2022.2.4,60.025126527606204,
-150,z,0,3,3,3,,,,,126.96080980007537,127.96051739994437,127.96051739994437,127.96051739994437,127.96051739994437,127.96051739994437,128.96075160009786,128.96075160009786,z,1,0.3046764999162406,455576,001,2022-10-12_19h30.28.624,sequential leraning task,2022.2.4,60.025126527606204,
-50,x,1,0,4,0,,,,,129.29387750010937,130.2939259998966,130.2939259998966,130.2939259998966,130.2939259998966,130.2939259998966,131.29394189990126,131.29394189990126,x,1,0.40035869972780347,455576,001,2022-10-12_19h30.28.624,sequential leraning task,2022.2.4,60.025126527606204,
150,v,1,1,5,1,,,,,131.71054299990647,132.71076070005074,132.71076070005074,132.71076070005074,132.71076070005074,132.71076070005074,133.71060029999353,133.71060029999353,v,1,0.3634927000384778,455576,001,2022-10-12_19h30.28.624,sequential leraning task,2022.2.4,60.025126527606204,
50,c,1,2,6,2,,,,,134.09410450002179,135.0938748999033,135.0938748999033,135.0938748999033,135.0938748999033,135.0938748999033,136.09402199997567,136.09402199997567,c,1,0.374545999802649,455576,001,2022-10-12_19h30.28.624,sequential leraning task,2022.2.4,60.025126527606204,
-150,z,1,3,7,3,,,,,136.49384739995003,137.49412170005962,137.49412170005962,137.49412170005962,137.49412170005962,137.49412170005962,138.4938797999639,138.4938797999639,z,1,0.3505575000308454,455576,001,2022-10-12_19h30.28.624,sequential leraning task,2022.2.4,60.025126527606204,
-50,x,2,0,8,0,,,,,138.86069780006073,139.8605583999306,139.8605583999306,139.8605583999306,139.8605583999306,139.8605583999306,140.86062330007553,140.86062330007553,z,0,0.3467647999059409,455576,001,2022-10-12_19h30.28.624,sequential leraning task,2022.2.4,60.025126527606204,
150,v,2,1,9,1,,,,,141.22735349996947,142.22719700005837,142.22719700005837,142.22719700005837,142.22719700005837,142.22719700005837,143.22735309996642,143.22735309996642,v,1,0.38956139981746674,455576,001,2022-10-12_19h30.28.624,sequential leraning task,2022.2.4,60.025126527606204,
50,c,2,2,10,2,,,,,143.64399369992316,144.64392019994557,144.64392019994557,144.64392019994557,144.64392019994557,144.64392019994557,145.64409699989483,145.64409699989483,c,1,0.33766509988345206,455576,001,2022-10-12_19h30.28.624,sequential leraning task,2022.2.4,60.025126527606204,
-150,z,2,3,11,3,,,,,146.010484599974,147.01053390000015,147.01053390000015,147.01053390000015,147.01053390000015,147.01053390000015,148.0107833999209,148.0107833999209,z,1,0.35669439984485507,455576,001,2022-10-12_19h30.28.624,sequential leraning task,2022.2.4,60.025126527606204,
-50,x,3,0,12,0,,,,,148.39382499991916,149.39407390006818,149.39407390006818,149.39407390006818,149.39407390006818,149.39407390006818,150.39391379989684,150.39391379989684,x,1,0.3387422999367118,455576,001,2022-10-12_19h30.28.624,sequential leraning task,2022.2.4,60.025126527606204,
150,v,3,1,13,1,,,,,150.76050699991174,151.7606146999169,151.7606146999169,151.7606146999169,151.7606146999169,151.7606146999169,152.7604968000669,152.7604968000669,v,1,0.4173248999286443,455576,001,2022-10-12_19h30.28.624,sequential leraning task,2022.2.4,60.025126527606204,
50,c,3,2,14,2,,,,,153.19401800003834,154.19385859998874,154.19385859998874,154.19385859998874,154.19385859998874,154.19385859998874,155.19397919997573,155.19397919997573,c,1,0.3308053999207914,455576,001,2022-10-12_19h30.28.624,sequential leraning task,2022.2.4,60.025126527606204,
-150,z,3,3,15,3,,,,,155.54368070000783,156.5437994999811,156.5437994999811,156.5437994999811,156.5437994999811,156.5437994999811,157.543878500117,157.543878500117,z,1,0.3179331000428647,455576,001,2022-10-12_19h30.28.624,sequential leraning task,2022.2.4,60.025126527606204,
-50,x,4,0,16,0,,,,,157.8938557000365,158.89388630003668,158.89388630003668,158.89388630003668,158.89388630003668,158.89388630003668,159.89384160004556,159.89384160004556,x,1,0.28732319991104305,455576,001,2022-10-12_19h30.28.624,sequential leraning task,2022.2.4,60.025126527606204,
150,v,4,1,17,1,,,,,160.21052010008134,161.21049700002186,161.21049700002186,161.21049700002186,161.21049700002186,161.21049700002186,162.2105185999535,162.2105185999535,c,0,0.2686976999975741,455576,001,2022-10-12_19h30.28.624,sequential leraning task,2022.2.4,60.025126527606204,
50,c,4,2,18,2,,,,,162.51051010005176,163.51073980005458,163.51073980005458,163.51073980005458,163.51073980005458,163.51073980005458,164.5105685000308,164.5105685000308,c,1,0.3213089997880161,455576,001,2022-10-12_19h30.28.624,sequential leraning task,2022.2.4,60.025126527606204,
-150,z,4,3,19,3,,,,,164.86070480011404,165.86057100002654,165.86057100002654,165.86057100002654,165.86057100002654,165.86057100002654,166.86064939992502,166.86064939992502,z,1,0.31679690000601113,455576,001,2022-10-12_19h30.28.624,sequential leraning task,2022.2.4,60.025126527606204,
-50,x,5,0,20,0,,,,,167.1936772998888,168.1938885001,168.1938885001,168.1938885001,168.1938885001,168.1938885001,169.19404250010848,169.19404250010848,x,1,0.28777939989231527,455576,001,2022-10-12_19h30.28.624,sequential leraning task,2022.2.4,60.025126527606204,
150,v,5,1,21,1,,,,,169.5102876999881,170.5106840999797,170.5106840999797,170.5106840999797,170.5106840999797,170.5106840999797,171.51048170006834,171.51048170006834,v,1,0.36636419990099967,455576,001,2022-10-12_19h30.28.624,sequential leraning task,2022.2.4,60.025126527606204,
50,c,5,2,22,2,,,,,171.893878800096,172.89379510004073,172.89379510004073,172.89379510004073,172.89379510004073,172.89379510004073,173.89399120002054,173.89399120002054,c,1,0.42152209975756705,455576,001,2022-10-12_19h30.28.624,sequential leraning task,2022.2.4,60.025126527606204,
-150,z,5,3,23,3,,,,,174.34380699996836,175.34380450006574,175.34380450006574,175.34380450006574,175.34380450006574,175.34380450006574,176.34383859997615,176.34383859997615,z,1,0.33158829994499683,455576,001,2022-10-12_19h30.28.624,sequential leraning task,2022.2.4,60.025126527606204,
-50,x,6,0,24,0,,,,,176.6941643001046,177.69398769992404,177.69398769992404,177.69398769992404,177.69398769992404,177.69398769992404,178.6937770000659,178.6937770000659,x,1,0.34740329976193607,455576,001,2022-10-12_19h30.28.624,sequential leraning task,2022.2.4,60.025126527606204,
150,v,6,1,25,1,,,,,179.06034639989957,180.06073540006764,180.06073540006764,180.06073540006764,180.06073540006764,180.06073540006764,181.06066099996679,181.06066099996679,v,1,0.6668810998089612,455576,001,2022-10-12_19h30.28.624,sequential leraning task,2022.2.4,60.025126527606204,
50,c,6,2,26,2,,,,,181.7439206999261,182.74398640007712,182.74398640007712,182.74398640007712,182.74398640007712,182.74398640007712,183.7439449999947,183.7439449999947,c,1,0.5712756998836994,455576,001,2022-10-12_19h30.28.624,sequential leraning task,2022.2.4,60.025126527606204,
-150,z,6,3,27,3,,,,,184.34387769992463,185.34395350003615,185.34395350003615,185.34395350003615,185.34395350003615,185.34395350003615,186.34381349990144,186.34381349990144,z,1,0.35926469997502863,455576,001,2022-10-12_19h30.28.624,sequential leraning task,2022.2.4,60.025126527606204,
-50,x,7,0,28,0,,,,,186.7271734001115,187.72740809991956,187.72740809991956,187.72740809991956,187.72740809991956,187.72740809991956,188.72714910004288,188.72714910004288,x,1,0.30654009990394115,455576,001,2022-10-12_19h30.28.624,sequential leraning task,2022.2.4,60.025126527606204,
150,v,7,1,29,1,,,,,189.06064060004428,190.06049420009367,190.06049420009367,190.06049420009367,190.06049420009367,190.06049420009367,191.0607708999887,191.0607708999887,v,1,0.5126791999209672,455576,001,2022-10-12_19h30.28.624,sequential leraning task,2022.2.4,60.025126527606204,
50,c,7,2,30,2,,,,,191.59375100000761,192.594033600064,192.594033600064,192.594033600064,192.594033600064,192.594033600064,193.59395779995248,193.59395779995248,c,1,0.3912154999561608,455576,001,2022-10-12_19h30.28.624,sequential leraning task,2022.2.4,60.025126527606204,
-150,z,7,3,31,3,,,,,194.01082600001246,195.01047739991918,195.01047739991918,195.01047739991918,195.01047739991918,195.01047739991918,196.0106951999478,196.0106951999478,z,1,0.31754589988850057,455576,001,2022-10-12_19h30.28.624,sequential leraning task,2022.2.4,60.025126527606204,
-50,x,8,0,32,0,,,,,196.36047210008837,197.3605430999305,197.3605430999305,197.3605430999305,197.3605430999305,197.3605430999305,198.3604304001201,198.3604304001201,c,0,0.2543706998694688,455576,001,2022-10-12_19h30.28.624,sequential leraning task,2022.2.4,60.025126527606204,
150,v,8,1,33,1,,,,,198.64383370010182,199.6438049999997,199.6438049999997,199.6438049999997,199.6438049999997,199.6438049999997,200.64388009998947,200.64388009998947,v,1,0.48650019988417625,455576,001,2022-10-12_19h30.28.624,sequential leraning task,2022.2.4,60.025126527606204,
50,c,8,2,34,2,,,,,201.16060200007632,202.16080239997245,202.16080239997245,202.16080239997245,202.16080239997245,202.16080239997245,203.16068390011787,203.16068390011787,c,1,0.23371049971319735,455576,001,2022-10-12_19h30.28.624,sequential leraning task,2022.2.4,60.025126527606204,
-150,z,8,3,35,3,,,,,203.41069300007075,204.4104498999659,204.4104498999659,204.4104498999659,204.4104498999659,204.4104498999659,205.41059849993326,205.41059849993326,z,1,0.23362589976750314,455576,001,2022-10-12_19h30.28.624,sequential leraning task,2022.2.4,60.025126527606204,
-50,x,9,0,36,0,,,,,205.6607965999283,206.66028570011258,206.66028570011258,206.66028570011258,206.66028570011258,206.66028570011258,207.66046290006489,207.66046290006489,x,1,0.31771759991534054,455576,001,2022-10-12_19h30.28.624,sequential leraning task,2022.2.4,60.025126527606204,
150,v,9,1,37,1,,,,,208.01047149999067,209.01071870001033,209.01071870001033,209.01071870001033,209.01071870001033,209.01071870001033,210.01045860000886,210.01045860000886,c,0,0.3022274998947978,455576,001,2022-10-12_19h30.28.624,sequential leraning task,2022.2.4,60.025126527606204,
50,c,9,2,38,2,,,,,210.34395170002244,211.3437600999605,211.3437600999605,211.3437600999605,211.3437600999605,211.3437600999605,212.34389550006017,212.34389550006017,c,1,0.2925993998069316,455576,001,2022-10-12_19h30.28.624,sequential leraning task,2022.2.4,60.025126527606204,
-150,z,9,3,39,3,,,,,212.66056689992547,213.66084300004877,213.66084300004877,213.66084300004877,213.66084300004877,213.66084300004877,214.66063540009782,214.66063540009782,z,1,0.30659860000014305,455576,001,2022-10-12_19h30.28.624,sequential leraning task,2022.2.4,60.025126527606204,
-50,x,10,0,40,0,,,,,214.99367649992928,215.99396970006637,215.99396970006637,215.99396970006637,215.99396970006637,215.99396970006637,216.99377950001508,216.99377950001508,x,1,0.44123779982328415,455576,001,2022-10-12_19h30.28.624,sequential leraning task,2022.2.4,60.025126527606204,
150,v,10,1,41,1,,,,,217.46042490005493,218.4606312001124,218.4606312001124,218.4606312001124,218.4606312001124,218.4606312001124,219.4604128000792,219.4604128000792,v,1,0.38037290005013347,455576,001,2022-10-12_19h30.28.624,sequential leraning task,2022.2.4,60.025126527606204,
50,c,10,2,42,2,,,,,219.86065989988856,220.86056399997324,220.86056399997324,220.86056399997324,220.86056399997324,220.86056399997324,221.8606813000515,221.8606813000515,c,1,0.4223415998276323,455576,001,2022-10-12_19h30.28.624,sequential leraning task,2022.2.4,60.025126527606204,
-150,z,10,3,43,3,,,,,222.31047839997336,223.31047070003115,223.31047070003115,223.31047070003115,223.31047070003115,223.31047070003115,224.31096850009635,224.31096850009635,z,1,0.32924410002306104,455576,001,2022-10-12_19h30.28.624,sequential leraning task,2022.2.4,60.025126527606204,
-50,x,11,0,44,0,,,,,224.66033250000328,225.6603475001175,225.6603475001175,225.6603475001175,225.6603475001175,225.6603475001175,226.66046839999035,226.66046839999035,x,1,0.31817949982360005,455576,001,2022-10-12_19h30.28.624,sequential leraning task,2022.2.4,60.025126527606204,
150,v,11,1,45,1,,,,,227.0106236001011,228.0105765000917,228.0105765000917,228.0105765000917,228.0105765000917,228.0105765000917,229.01027609989978,229.01027609989978,c,0,0.3703458998352289,455576,001,2022-10-12_19h30.28.624,sequential leraning task,2022.2.4,60.025126527606204,
50,c,11,2,46,2,,,,,229.41049770009704,230.41044149990194,230.41044149990194,230.41044149990194,230.41044149990194,230.41044149990194,231.41066729999147,231.41066729999147,c,1,0.32409040001221,455576,001,2022-10-12_19h30.28.624,sequential leraning task,2022.2.4,60.025126527606204,
-150,z,11,3,47,3,,,,,231.76059000007808,232.760436499957,232.760436499957,232.760436499957,232.760436499957,232.760436499957,233.76051530009136,233.76051530009136,z,1,0.3514781999401748,455576,001,2022-10-12_19h30.28.624,sequential leraning task,2022.2.4,60.025126527606204,
-50,x,12,0,48,0,,,,,234.14376759994775,235.14386980002746,235.14386980002746,235.14386980002746,235.14386980002746,235.14386980002746,236.14365480002016,236.14365480002016,x,1,0.43236640002578497,455576,001,2022-10-12_19h30.28.624,sequential leraning task,2022.2.4,60.025126527606204,
150,v,12,1,49,1,,,,,236.59387090010568,237.59376309998333,237.59376309998333,237.59376309998333,237.59376309998333,237.59376309998333,238.5939376000315,238.5939376000315,v,1,0.4545622000005096,455576,001,2022-10-12_19h30.28.624,sequential leraning task,2022.2.4,60.025126527606204,
50,c,12,2,50,2,,,,,239.07698570005596,240.077272699913,240.077272699913,240.077272699913,240.077272699913,240.077272699913,241.0773241999559,241.0773241999559,c,1,0.3620958998799324,455576,001,2022-10-12_19h30.28.624,sequential leraning task,2022.2.4,60.025126527606204,
-150,z,12,3,51,3,,,,,241.46029580011964,242.46047959988937,242.46047959988937,242.46047959988937,242.46047959988937,242.46047959988937,243.46043110010214,243.46043110010214,z,1,0.3545552999712527,455576,001,2022-10-12_19h30.28.624,sequential leraning task,2022.2.4,60.025126527606204,
-50,x,13,0,52,0,,,,,243.84375480003655,244.84380619996227,244.84380619996227,244.84380619996227,244.84380619996227,244.84380619996227,245.84399860003032,245.84399860003032,x,1,0.3527925999369472,455576,001,2022-10-12_19h30.28.624,sequential leraning task,2022.2.4,60.025126527606204,
150,v,13,1,53,1,,,,,246.22714730002917,247.22706330008805,247.22706330008805,247.22706330008805,247.22706330008805,247.22706330008805,248.22705339989625,248.22705339989625,v,1,0.43156689987517893,455576,001,2022-10-12_19h30.28.624,sequential leraning task,2022.2.4,60.025126527606204,
50,c,13,2,54,2,,,,,248.6770719999913,249.67720669996925,249.67720669996925,249.67720669996925,249.67720669996925,249.67720669996925,250.67731179995462,250.67731179995462,c,1,0.37093039974570274,455576,001,2022-10-12_19h30.28.624,sequential leraning task,2022.2.4,60.025126527606204,
-150,z,13,3,55,3,,,,,251.0772798000835,252.07705270010047,252.07705270010047,252.07705270010047,252.07705270010047,252.07705270010047,253.07706980011426,253.07706980011426,z,1,0.3306575999595225,455576,001,2022-10-12_19h30.28.624,sequential leraning task,2022.2.4,60.025126527606204,
-50,x,14,0,56,0,,,,,253.42713330010884,254.42725430009887,254.42725430009887,254.42725430009887,254.42725430009887,254.42725430009887,255.42706999997608,255.42706999997608,x,1,0.31141229975037277,455576,001,2022-10-12_19h30.28.624,sequential leraning task,2022.2.4,60.025126527606204,
150,v,14,1,57,1,,,,,255.7605924999807,256.76038930006325,256.76038930006325,256.76038930006325,256.76038930006325,256.76038930006325,257.7605407999363,257.7605407999363,v,1,0.4797815999481827,455576,001,2022-10-12_19h30.28.624,sequential leraning task,2022.2.4,60.025126527606204,
50,c,14,2,58,2,,,,,258.26045840000734,259.26063039992005,259.26063039992005,259.26063039992005,259.26063039992005,259.26063039992005,260.2604169000406,260.2604169000406,c,1,0.30347179993987083,455576,001,2022-10-12_19h30.28.624,sequential leraning task,2022.2.4,60.025126527606204,
-150,z,14,3,59,3,,,,,260.5939418999478,261.5938387999777,261.5938387999777,261.5938387999777,261.5938387999777,261.5938387999777,262.5939239000436,262.5939239000436,z,1,0.30263919988647103,455576,001,2022-10-12_19h30.28.624,sequential leraning task,2022.2.4,60.025126527606204,
-50,x,15,0,60,0,,,,,262.9268841999583,263.9273031000048,263.9273031000048,263.9273031000048,263.9273031000048,263.9273031000048,264.9272404999938,264.9272404999938,x,1,0.3501106998883188,455576,001,2022-10-12_19h30.28.624,sequential leraning task,2022.2.4,60.025126527606204,
150,v,15,1,61,1,,,,,265.29391840007156,266.2942659999244,266.2942659999244,266.2942659999244,266.2942659999244,266.2942659999244,267.29388560005464,267.29388560005464,v,1,0.3974095999728888,455576,001,2022-10-12_19h30.28.624,sequential leraning task,2022.2.4,60.025126527606204,
50,c,15,2,62,2,,,,,267.7104070999194,268.7106113000773,268.7106113000773,268.7106113000773,268.7106113000773,268.7106113000773,269.7104062999133,269.7104062999133,c,1,0.3785858997143805,455576,001,2022-10-12_19h30.28.624,sequential leraning task,2022.2.4,60.025126527606204,
-150,z,15,3,63,3,,,,,270.1103846998885,271.11058060009964,271.11058060009964,271.11058060009964,271.11058060009964,271.11058060009964,272.1104198000394,272.1104198000394,z,1,0.36706589977256954,455576,001,2022-10-12_19h30.28.624,sequential leraning task,2022.2.4,60.025126527606204,
-50,x,16,0,64,0,,,,,272.49359380011447,273.4939554000739,273.4939554000739,273.4939554000739,273.4939554000739,273.4939554000739,274.49375350004993,274.49375350004993,x,1,0.3844842999242246,455576,001,2022-10-12_19h30.28.624,sequential leraning task,2022.2.4,60.025126527606204,
150,v,16,1,65,1,,,,,274.9105750999879,275.9103788000066,275.9103788000066,275.9103788000066,275.9103788000066,275.9103788000066,276.91050229989924,276.91050229989924,v,1,0.38946720003150403,455576,001,2022-10-12_19h30.28.624,sequential leraning task,2022.2.4,60.025126527606204,
50,c,16,2,66,2,,,,,277.32735290005803,278.32687860005535,278.32687860005535,278.32687860005535,278.32687860005535,278.32687860005535,279.32725009997375,279.32725009997375,c,1,0.4329070998355746,455576,001,2022-10-12_19h30.28.624,sequential leraning task,2022.2.4,60.025126527606204,
-150,z,16,3,67,3,,,,,279.77706840005703,280.77703340002336,280.77703340002336,280.77703340002336,280.77703340002336,280.77703340002336,281.77706030011177,281.77706030011177,z,1,0.38549799984321,455576,001,2022-10-12_19h30.28.624,sequential leraning task,2022.2.4,60.025126527606204,
-50,x,17,0,68,0,,,,,282.19376359996386,283.19370130007155,283.19370130007155,283.19370130007155,283.19370130007155,283.19370130007155,284.1936745001003,284.1936745001003,x,1,0.2787236999720335,455576,001,2022-10-12_19h30.28.624,sequential leraning task,2022.2.4,60.025126527606204,
150,v,17,1,69,1,,,,,284.49352600006387,285.4939548999537,285.4939548999537,285.4939548999537,285.4939548999537,285.4939548999537,286.4936792999506,286.4936792999506,v,1,0.3785396998282522,455576,001,2022-10-12_19h30.28.624,sequential leraning task,2022.2.4,60.025126527606204,
50,c,17,2,70,2,,,,,286.89370010001585,287.8939696000889,287.8939696000889,287.8939696000889,287.8939696000889,287.8939696000889,288.8938283000607,288.8938283000607,c,1,0.3895944997202605,455576,001,2022-10-12_19h30.28.624,sequential leraning task,2022.2.4,60.025126527606204,
-150,z,17,3,71,3,,,,,289.31050839996897,290.3103332000319,290.3103332000319,290.3103332000319,290.3103332000319,290.3103332000319,291.310633599991,291.310633599991,z,1,0.28664919966831803,455576,001,2022-10-12_19h30.28.624,sequential leraning task,2022.2.4,60.025126527606204,
-50,x,18,0,72,0,,,,,291.6270435999613,292.6270691000391,292.6270691000391,292.6270691000391,292.6270691000391,292.6270691000391,293.627213699976,293.627213699976,x,1,0.33006679988466203,455576,001,2022-10-12_19h30.28.624,sequential leraning task,2022.2.4,60.025126527606204,
150,v,18,1,73,1,,,,,293.9772409000434,294.97706510010175,294.97706510010175,294.97706510010175,294.97706510010175,294.97706510010175,295.977175100008,295.977175100008,v,1,0.3328918998595327,455576,001,2022-10-12_19h30.28.624,sequential leraning task,2022.2.4,60.025126527606204,
50,c,18,2,74,2,,,,,296.3270332000684,297.327026899904,297.327026899904,297.327026899904,297.327026899904,297.327026899904,298.3272414000239,298.3272414000239,c,1,0.3964403998106718,455576,001,2022-10-12_19h30.28.624,sequential leraning task,2022.2.4,60.025126527606204,
-150,z,18,3,75,3,,,,,298.74384610005654,299.74382130010054,299.74382130010054,299.74382130010054,299.74382130010054,299.74382130010054,300.74382609990425,300.74382609990425,z,1,0.3265957997646183,455576,001,2022-10-12_19h30.28.624,sequential leraning task,2022.2.4,60.025126527606204,
-50,x,19,0,76,0,,,,,301.09369660005905,302.0939017001074,302.0939017001074,302.0939017001074,302.0939017001074,302.0939017001074,303.09374370006844,303.09374370006844,x,1,0.27030269987881184,455576,001,2022-10-12_19h30.28.624,sequential leraning task,2022.2.4,60.025126527606204,
150,v,19,1,77,1,,,,,303.3936803000979,304.3938750999514,304.3938750999514,304.3938750999514,304.3938750999514,304.3938750999514,305.39385499991477,305.39385499991477,v,1,0.33924679970368743,455576,001,2022-10-12_19h30.28.624,sequential leraning task,2022.2.4,60.025126527606204,
50,c,19,2,78,2,,,,,305.76036439999007,306.76062970003113,306.76062970003113,306.76062970003113,306.76062970003113,306.76062970003113,307.7603402000386,307.7603402000386,c,1,0.3284494997933507,455576,001,2022-10-12_19h30.28.624,sequential leraning task,2022.2.4,60.025126527606204,
-150,z,19,3,79,3,,,,,308.1101710998919,309.1104675999377,309.1104675999377,309.1104675999377,309.1104675999377,309.1104675999377,310.11056940001436,310.11056940001436,z,1,0.308975099818781,455576,001,2022-10-12_19h30.28.624,sequential leraning task,2022.2.4,60.025126527606204,
-50,x,20,0,80,0,,,,,310.44370390009135,311.44390420010313,311.44390420010313,311.44390420010313,311.44390420010313,311.44390420010313,312.44369250000454,312.44369250000454,x,1,0.33842049981467426,455576,001,2022-10-12_19h30.28.624,sequential leraning task,2022.2.4,60.025126527606204,
150,v,20,1,81,1,,,,,312.8103714999743,313.81038450007327,313.81038450007327,313.81038450007327,313.81038450007327,313.81038450007327,314.81039030011743,314.81039030011743,v,1,0.3384674999397248,455576,001,2022-10-12_19h30.28.624,sequential leraning task,2022.2.4,60.025126527606204,
50,c,20,2,82,2,,,,,315.1768996999599,316.17724859993905,316.17724859993905,316.17724859993905,316.17724859993905,316.17724859993905,317.17699529998936,317.17699529998936,c,1,0.30858589988201857,455576,001,2022-10-12_19h30.28.624,sequential leraning task,2022.2.4,60.025126527606204,
-150,z,20,3,83,3,,,,,317.51056959992275,318.51041850005277,318.51041850005277,318.51041850005277,318.51041850005277,318.51041850005277,319.51033829990774,319.51033829990774,z,1,0.30125939985737205,455576,001,2022-10-12_19h30.28.624,sequential leraning task,2022.2.4,60.025126527606204,
-50,x,21,0,84,0,,,,,319.8437049998902,320.84366420004517,320.84366420004517,320.84366420004517,320.84366420004517,320.84366420004517,321.84373020008206,321.84373020008206,x,1,0.3513978999108076,455576,001,2022-10-12_19h30.28.624,sequential leraning task,2022.2.4,60.025126527606204,
150,v,21,1,85,1,,,,,322.22722840006463,323.22700610011816,323.22700610011816,323.22700610011816,323.22700610011816,323.22700610011816,324.22717919992283,324.22717919992283,v,1,0.31772579974494874,455576,001,2022-10-12_19h30.28.624,sequential leraning task,2022.2.4,60.025126527606204,
50,c,21,2,86,2,,,,,324.5771860999521,325.57695899996907,325.57695899996907,325.57695899996907,325.57695899996907,325.57695899996907,326.5770411998965,326.5770411998965,c,1,0.34172759973444045,455576,001,2022-10-12_19h30.28.624,sequential leraning task,2022.2.4,60.025126527606204,
-150,z,21,3,87,3,,,,,326.9438179000281,327.94363239989616,327.94363239989616,327.94363239989616,327.94363239989616,327.94363239989616,328.9437275000382,328.9437275000382,z,1,0.47179679991677403,455576,001,2022-10-12_19h30.28.624,sequential leraning task,2022.2.4,60.025126527606204,
-50,x,22,0,88,0,,,,,329.4439908999484,330.44383809994906,330.44383809994906,330.44383809994906,330.44383809994906,330.44383809994906,331.4436858999543,331.4436858999543,x,1,0.30225589987821877,455576,001,2022-10-12_19h30.28.624,sequential leraning task,2022.2.4,60.025126527606204,
150,v,22,1,89,1,,,,,331.7772121001035,332.77695679990575,332.77695679990575,332.77695679990575,332.77695679990575,332.77695679990575,333.7771523001138,333.7771523001138,v,1,0.33370910002849996,455576,001,2022-10-12_19h30.28.624,sequential leraning task,2022.2.4,60.025126527606204,
50,c,22,2,90,2,,,,,334.1268660998903,335.1270250000525,335.1270250000525,335.1270250000525,335.1270250000525,335.1270250000525,336.1269998999778,336.1269998999778,c,1,0.3914417999330908,455576,001,2022-10-12_19h30.28.624,sequential leraning task,2022.2.4,60.025126527606204,
-150,z,22,3,91,3,,,,,336.5437187999487,337.54364300007,337.54364300007,337.54364300007,337.54364300007,337.54364300007,338.5436939999927,338.5436939999927,z,1,0.35255139973014593,455576,001,2022-10-12_19h30.28.624,sequential leraning task,2022.2.4,60.025126527606204,
-50,x,23,0,92,0,,,,,338.9272348000668,339.9269499001093,339.9269499001093,339.9269499001093,339.9269499001093,339.9269499001093,340.92725299997255,340.92725299997255,x,1,0.3059213000815362,455576,001,2022-10-12_19h30.28.624,sequential leraning task,2022.2.4,60.025126527606204,
150,v,23,1,93,1,,,,,341.2603362998925,342.2604461000301,342.2604461000301,342.2604461000301,342.2604461000301,342.2604461000301,343.2603060998954,343.2603060998954,v,1,0.30555210006423295,455576,001,2022-10-12_19h30.28.624,sequential leraning task,2022.2.4,60.025126527606204,
50,c,23,2,94,2,,,,,343.59385440009646,344.5936634999234,344.5936634999234,344.5936634999234,344.5936634999234,344.5936634999234,345.59388209995814,345.59388209995814,c,1,0.28775919997133315,455576,001,2022-10-12_19h30.28.624,sequential leraning task,2022.2.4,60.025126527606204,
-150,z,23,3,95,3,,,,,345.9103033998981,346.91041089990176,346.91041089990176,346.91041089990176,346.91041089990176,346.91041089990176,347.91031010006554,347.91031010006554,z,1,0.31584139983169734,455576,001,2022-10-12_19h30.28.624,sequential leraning task,2022.2.4,60.025126527606204,
50,c,,,,,0,0,0,2,348.2603001999669,349.243610000005,349.243610000005,349.243610000005,349.243610000005,349.2605989999138,350.2437942000106,350.2437942000106,c,1,0.31486729974858463,455576,001,2022-10-12_19h30.28.624,sequential leraning task,2022.2.4,60.025126527606204,
-50,x,,,,,0,1,1,0,350.5767598999664,351.577154800063,351.577154800063,351.577154800063,351.577154800063,351.577154800063,352.5769277999643,352.5769277999643,x,1,0.34822789998725057,455576,001,2022-10-12_19h30.28.624,sequential leraning task,2022.2.4,60.025126527606204,
-150,z,,,,,0,2,2,3,352.94366430002265,353.9433230001014,353.9433230001014,353.9433230001014,353.9433230001014,353.9433230001014,354.9436665000394,354.9436665000394,z,1,0.3326220999006182,455576,001,2022-10-12_19h30.28.624,sequential leraning task,2022.2.4,60.025126527606204,
150,v,,,,,0,3,3,1,355.2935786000453,356.2937302000355,356.2937302000355,356.2937302000355,356.2937302000355,356.2937302000355,357.29390190006234,357.29390190006234,v,1,0.4346676997374743,455576,001,2022-10-12_19h30.28.624,sequential leraning task,2022.2.4,60.025126527606204,
-150,z,,,,,1,0,4,3,357.76046020002104,358.76047379989177,358.76047379989177,358.76047379989177,358.76047379989177,358.76047379989177,359.76031220005825,359.76031220005825,z,1,0.40507069998420775,455576,001,2022-10-12_19h30.28.624,sequential leraning task,2022.2.4,60.025126527606204,
50,c,,,,,1,1,5,2,360.1936582000926,361.1936248000711,361.1936248000711,361.1936248000711,361.1936248000711,361.1936248000711,362.1936419000849,362.1936419000849,c,1,0.2874763999134302,455576,001,2022-10-12_19h30.28.624,sequential leraning task,2022.2.4,60.025126527606204,
-50,x,,,,,1,2,6,0,362.5103895000648,363.51021960005164,363.51021960005164,363.51021960005164,363.51021960005164,363.51021960005164,364.5103519000113,364.5103519000113,x,1,0.29681880003772676,455576,001,2022-10-12_19h30.28.624,sequential leraning task,2022.2.4,60.025126527606204,
-50,x,,,,,1,3,7,0,364.82716089999303,365.8273332999088,365.8273332999088,365.8273332999088,365.8273332999088,365.8273332999088,366.8270916000474,366.8270916000474,x,1,0.3987690999638289,455576,001,2022-10-12_19h30.28.624,sequential leraning task,2022.2.4,60.025126527606204,
-150,z,,,,,2,0,8,3,367.24382460000925,368.2436230999883,368.2436230999883,368.2436230999883,368.2436230999883,368.2436230999883,369.2438570999075,369.2438570999075,z,1,0.3387341999914497,455576,001,2022-10-12_19h30.28.624,sequential leraning task,2022.2.4,60.025126527606204,
150,v,,,,,2,1,9,1,369.61015520012006,370.6103735999204,370.6103735999204,370.6103735999204,370.6103735999204,370.6103735999204,371.61035860003904,371.61035860003904,v,1,0.37911379989236593,455576,001,2022-10-12_19h30.28.624,sequential leraning task,2022.2.4,60.025126527606204,
-50,x,,,,,2,2,10,0,372.01046069990844,373.0102893000003,373.0102893000003,373.0102893000003,373.0102893000003,373.0102893000003,374.01044310000725,374.01044310000725,x,1,0.3967299999203533,455576,001,2022-10-12_19h30.28.624,sequential leraning task,2022.2.4,60.025126527606204,
-150,z,,,,,2,3,11,3,374.42723540007137,375.426948599983,375.426948599983,375.426948599983,375.426948599983,375.426948599983,376.4271104000509,376.4271104000509,z,1,0.31853299983777106,455576,001,2022-10-12_19h30.28.624,sequential leraning task,2022.2.4,60.025126527606204,
-50,x,,,,,3,0,12,0,376.77693920000456,377.77724239998497,377.77724239998497,377.77724239998497,377.77724239998497,377.77724239998497,378.7768794000149,378.7768794000149,x,1,0.35253799986094236,455576,001,2022-10-12_19h30.28.624,sequential leraning task,2022.2.4,60.025126527606204,
-50,x,,,,,3,1,13,0,379.16030910005793,380.1602886999026,380.1602886999026,380.1602886999026,380.1602886999026,380.1602886999026,381.1604738999158,381.1604738999158,x,1,0.3889707999769598,455576,001,2022-10-12_19h30.28.624,sequential leraning task,2022.2.4,60.025126527606204,
50,c,,,,,3,2,14,2,381.57696350011975,382.5769541999325,382.5769541999325,382.5769541999325,382.5769541999325,382.5769541999325,383.57717490009964,383.57717490009964,c,1,0.4099839997943491,455576,001,2022-10-12_19h30.28.624,sequential leraning task,2022.2.4,60.025126527606204,
50,c,,,,,3,3,15,2,384.0102325999178,385.0104517999571,385.0104517999571,385.0104517999571,385.0104517999571,385.0104517999571,386.0102413999848,386.0102413999848,c,1,0.4765879998449236,455576,001,2022-10-12_19h30.28.624,sequential leraning task,2022.2.4,60.025126527606204,
150,v,,,,,4,0,16,1,386.5105254999362,387.5103446999565,387.5103446999565,387.5103446999565,387.5103446999565,387.5103446999565,388.5102838999592,388.5102838999592,v,1,0.4080764998216182,455576,001,2022-10-12_19h30.28.624,sequential leraning task,2022.2.4,60.025126527606204,
50,c,,,,,4,1,17,2,388.94361179997213,389.9438106000889,389.9438106000889,389.9438106000889,389.9438106000889,389.9438106000889,390.9436083000619,390.9436083000619,c,1,0.34556800010614097,455576,001,2022-10-12_19h30.28.624,sequential leraning task,2022.2.4,60.025126527606204,
50,c,,,,,4,2,18,2,391.3102665001061,392.3102631000802,392.3102631000802,392.3102631000802,392.3102631000802,392.3102631000802,393.31008720002137,393.31008720002137,c,1,0.27389659988693893,455576,001,2022-10-12_19h30.28.624,sequential leraning task,2022.2.4,60.025126527606204,
-50,x,,,,,4,3,19,0,393.6102326998953,394.6104739999864,394.6104739999864,394.6104739999864,394.6104739999864,394.6104739999864,395.61045709997416,395.61045709997416,x,1,0.3751246999017894,455576,001,2022-10-12_19h30.28.624,sequential leraning task,2022.2.4,60.025126527606204,
-50,x,,,,,5,0,20,0,396.01024669990875,397.0103005000856,397.0103005000856,397.0103005000856,397.0103005000856,397.0103005000856,398.010455599986,398.010455599986,x,1,0.5478929998353124,455576,001,2022-10-12_19h30.28.624,sequential leraning task,2022.2.4,60.025126527606204,
-50,x,,,,,5,1,21,0,398.5768744999077,399.57693400001153,399.57693400001153,399.57693400001153,399.57693400001153,399.57693400001153,400.577179600019,400.577179600019,x,1,0.40093629993498325,455576,001,2022-10-12_19h30.28.624,sequential leraning task,2022.2.4,60.025126527606204,
50,c,,,,,5,2,22,2,401.01026510004885,402.01049529993907,402.01049529993907,402.01049529993907,402.01049529993907,402.01049529993907,403.01029739994556,403.01029739994556,x,0,0.45946819987148046,455576,001,2022-10-12_19h30.28.624,sequential leraning task,2022.2.4,60.025126527606204,
150,v,,,,,5,3,23,1,403.49370039999485,404.4935677999165,404.4935677999165,404.4935677999165,404.4935677999165,404.4935677999165,405.4936144000385,405.4936144000385,v,1,0.5146584997419268,455576,001,2022-10-12_19h30.28.624,sequential leraning task,2022.2.4,60.025126527606204,
150,v,,,,,6,0,24,1,406.0268987000454,407.0268107999582,407.0268107999582,407.0268107999582,407.0268107999582,407.0268107999582,408.02690250007436,408.02690250007436,v,1,0.5014154999516904,455576,001,2022-10-12_19h30.28.624,sequential leraning task,2022.2.4,60.025126527606204,
-50,x,,,,,6,1,25,0,408.56008949992247,409.56026079994626,409.56026079994626,409.56026079994626,409.56026079994626,409.56026079994626,410.56026110006496,410.56026110006496,x,1,0.3097490998916328,455576,001,2022-10-12_19h30.28.624,sequential leraning task,2022.2.4,60.025126527606204,
-150,z,,,,,6,2,26,3,410.89358879998326,411.8935595001094,411.8935595001094,411.8935595001094,411.8935595001094,411.8935595001094,412.8935684999451,412.8935684999451,z,1,0.366531599778682,455576,001,2022-10-12_19h30.28.624,sequential leraning task,2022.2.4,60.025126527606204,
50,c,,,,,6,3,27,2,413.27704249997623,414.2770354000386,414.2770354000386,414.2770354000386,414.2770354000386,414.2770354000386,415.27708439994603,415.27708439994603,c,1,0.3187729998026043,455576,001,2022-10-12_19h30.28.624,sequential leraning task,2022.2.4,60.025126527606204,
-150,z,,,,,7,0,28,3,415.626915599918,416.62713799998164,416.62713799998164,416.62713799998164,416.62713799998164,416.62713799998164,417.6269265001174,417.6269265001174,z,1,0.35968609992414713,455576,001,2022-10-12_19h30.28.624,sequential leraning task,2022.2.4,60.025126527606204,
150,v,,,,,7,1,29,1,418.01011190004647,419.0101695000194,419.0101695000194,419.0101695000194,419.0101695000194,419.0101695000194,420.01012130011804,420.01012130011804,v,1,0.5256344000808895,455576,001,2022-10-12_19h30.28.624,sequential leraning task,2022.2.4,60.025126527606204,
50,c,,,,,7,2,30,2,420.5602307000663,421.56045569991693,421.56045569991693,421.56045569991693,421.56045569991693,421.56045569991693,422.5601840999443,422.5601840999443,c,1,0.34881390002556145,455576,001,2022-10-12_19h30.28.624,sequential leraning task,2022.2.4,60.025126527606204,
150,v,,,,,7,3,31,1,422.92694070003927,423.92689209990203,423.92689209990203,423.92689209990203,423.92689209990203,423.92689209990203,424.9268124999944,424.9268124999944,v,1,0.3989670998416841,455576,001,2022-10-12_19h30.28.624,sequential leraning task,2022.2.4,60.025126527606204,
50,c,,,,,8,0,32,2,425.34377550007775,426.34353019995615,426.34353019995615,426.34353019995615,426.34353019995615,426.34353019995615,427.34344310010783,427.34344310010783,c,1,0.42714649997651577,455576,001,2022-10-12_19h30.28.624,sequential leraning task,2022.2.4,60.025126527606204,
50,c,,,,,8,1,33,2,427.7935729001183,428.7935466999188,428.7935466999188,428.7935466999188,428.7935466999188,428.7935466999188,429.7935291000176,429.7935291000176,c,1,0.3244603998027742,455576,001,2022-10-12_19h30.28.624,sequential leraning task,2022.2.4,60.025126527606204,
150,v,,,,,8,2,34,1,430.1435102999676,431.1435297001153,431.1435297001153,431.1435297001153,431.1435297001153,431.1435297001153,432.1436493000947,432.1436493000947,v,1,0.600417000008747,455576,001,2022-10-12_19h30.28.624,sequential leraning task,2022.2.4,60.025126527606204,
-150,z,,,,,8,3,35,3,432.7600849000737,433.7602550999727,433.7602550999727,433.7602550999727,433.7602550999727,433.7602550999727,434.7601364001166,434.7601364001166,z,1,0.33675069990567863,455576,001,2022-10-12_19h30.28.624,sequential leraning task,2022.2.4,60.025126527606204,
150,v,,,,,9,0,36,1,435.12710039992817,436.1268535000272,436.1268535000272,436.1268535000272,436.1268535000272,436.1268535000272,437.1270473001059,437.1270473001059,v,1,0.3417311997618526,455576,001,2022-10-12_19h30.28.624,sequential leraning task,2022.2.4,60.025126527606204,
-50,x,,,,,9,1,37,0,437.49378630006686,438.49353559990413,438.49353559990413,438.49353559990413,438.49353559990413,438.49353559990413,439.4937307999935,439.4937307999935,x,1,0.35773669998161495,455576,001,2022-10-12_19h30.28.624,sequential leraning task,2022.2.4,60.025126527606204,
50,c,,,,,9,2,38,2,439.876851900015,440.8770673000254,440.8770673000254,440.8770673000254,440.8770673000254,440.8770673000254,441.876899600029,441.876899600029,c,1,0.261574599891901,455576,001,2022-10-12_19h30.28.624,sequential leraning task,2022.2.4,60.025126527606204,
-50,x,,,,,9,3,39,0,442.16043870011345,443.160218300065,443.160218300065,443.160218300065,443.160218300065,443.160218300065,444.16045750002377,444.16045750002377,x,1,0.43078979989513755,455576,001,2022-10-12_19h30.28.624,sequential leraning task,2022.2.4,60.025126527606204,
-150,z,,,,,10,0,40,3,444.6102932000067,445.6102392000612,445.6102392000612,445.6102392000612,445.6102392000612,445.6102392000612,446.6102159000002,446.6102159000002,z,1,0.3504071997012943,455576,001,2022-10-12_19h30.28.624,sequential leraning task,2022.2.4,60.025126527606204,
150,v,,,,,10,1,41,1,446.97693539992906,447.97686329996213,447.97686329996213,447.97686329996213,447.97686329996213,447.97686329996213,448.9768817999866,448.9768817999866,v,1,0.3587444999720901,455576,001,2022-10-12_19h30.28.624,sequential leraning task,2022.2.4,60.025126527606204,
-150,z,,,,,10,2,42,3,449.3604476999026,450.3601168000605,450.3601168000605,450.3601168000605,450.3601168000605,450.3601168000605,451.3604361999314,451.3604361999314,z,1,0.3337280999403447,455576,001,2022-10-12_19h30.28.624,sequential leraning task,2022.2.4,60.025126527606204,
-150,z,,,,,10,3,43,3,451.7103778999299,452.71015419997275,452.71015419997275,452.71015419997275,452.71015419997275,452.71015419997275,453.7102985000238,453.7102985000238,z,1,0.455701399827376,455576,001,2022-10-12_19h30.28.624,sequential leraning task,2022.2.4,60.025126527606204,
150,v,,,,,11,0,44,1,454.1935008999426,455.19354110001586,455.19354110001586,455.19354110001586,455.19354110001586,455.19354110001586,456.19371040002443,456.19371040002443,c,0,0.26977969985455275,455576,001,2022-10-12_19h30.28.624,sequential leraning task,2022.2.4,60.025126527606204,
150,v,,,,,11,1,45,1,456.49371049995534,457.4935236000456,457.4935236000456,457.4935236000456,457.4935236000456,457.4935236000456,458.4936520999763,458.4936520999763,v,1,0.3807571998331696,455576,001,2022-10-12_19h30.28.624,sequential leraning task,2022.2.4,60.025126527606204,
-150,z,,,,,11,2,46,3,458.8933472998906,459.8935183000285,459.8935183000285,459.8935183000285,459.8935183000285,459.8935183000285,460.8934154000599,460.8934154000599,z,1,0.3456755999941379,455576,001,2022-10-12_19h30.28.624,sequential leraning task,2022.2.4,60.025126527606204,
-150,z,,,,,11,3,47,3,461.26001910003833,462.26022109994665,462.26022109994665,462.26022109994665,462.26022109994665,462.26022109994665,463.2601993000135,463.2601993000135,z,1,0.30250939982943237,455576,001,2022-10-12_19h30.28.624,sequential leraning task,2022.2.4,60.025126527606204,
50,c,,,,,12,0,48,2,463.59359150007367,464.59354729996994,464.59354729996994,464.59354729996994,464.59354729996994,464.59354729996994,465.5937614000868,465.5937614000868,c,1,0.5704851998016238,455576,001,2022-10-12_19h30.28.624,sequential leraning task,2022.2.4,60.025126527606204,
-50,x,,,,,12,1,49,0,466.1935622000601,467.19360530003905,467.19360530003905,467.19360530003905,467.19360530003905,467.19360530003905,468.1937528999988,468.1937528999988,x,1,0.2840515000279993,455576,001,2022-10-12_19h30.28.624,sequential leraning task,2022.2.4,60.025126527606204,
50,c,,,,,12,2,50,2,468.5102615999058,469.5103263000492,469.5103263000492,469.5103263000492,469.5103263000492,469.5103263000492,470.51039829989895,470.51039829989895,c,1,0.41104399994947016,455576,001,2022-10-12_19h30.28.624,sequential leraning task,2022.2.4,60.025126527606204,
50,c,,,,,12,3,51,2,470.94334740005434,471.9435338000767,471.9435338000767,471.9435338000767,471.9435338000767,471.9435338000767,472.9434756000992,472.9434756000992,c,1,0.4184317998588085,455576,001,2022-10-12_19h30.28.624,sequential leraning task,2022.2.4,60.025126527606204,
-50,x,,,,,13,0,52,0,473.3934971000999,474.39364530006424,474.39364530006424,474.39364530006424,474.39364530006424,474.39364530006424,475.39350649993867,475.39350649993867,x,1,0.45115839992649853,455576,001,2022-10-12_19h30.28.624,sequential leraning task,2022.2.4,60.025126527606204,
50,c,,,,,13,1,53,2,475.87687720009126,476.87680139997974,476.87680139997974,476.87680139997974,476.87680139997974,476.87680139997974,477.87682179990225,477.87682179990225,c,1,0.30441569979302585,455576,001,2022-10-12_19h30.28.624,sequential leraning task,2022.2.4,60.025126527606204,
-150,z,,,,,13,2,54,3,478.2104189998936,479.2103597000241,479.2103597000241,479.2103597000241,479.2103597000241,479.2103597000241,480.21035129996017,480.21035129996017,z,1,0.3318589997943491,455576,001,2022-10-12_19h30.28.624,sequential leraning task,2022.2.4,60.025126527606204,
-50,x,,,,,13,3,55,0,480.56027269992046,481.5601635999046,481.5601635999046,481.5601635999046,481.5601635999046,481.5601635999046,482.5601914001163,482.5601914001163,x,1,0.3457450997084379,455576,001,2022-10-12_19h30.28.624,sequential leraning task,2022.2.4,60.025126527606204,
150,v,,,,,14,0,56,1,482.92679989989847,483.9268334999215,483.9268334999215,483.9268334999215,483.9268334999215,483.9268334999215,484.9270474999212,484.9270474999212,v,1,0.3727768997196108,455576,001,2022-10-12_19h30.28.624,sequential leraning task,2022.2.4,60.025126527606204,
-150,z,,,,,14,1,57,3,485.32726930011995,486.3268102000002,486.3268102000002,486.3268102000002,486.3268102000002,486.3268102000002,487.3268695999868,487.3268695999868,z,1,0.3087398000061512,455576,001,2022-10-12_19h30.28.624,sequential leraning task,2022.2.4,60.025126527606204,
50,c,,,,,14,2,58,2,487.660156799946,488.66071829991415,488.66071829991415,488.66071829991415,488.66071829991415,488.66071829991415,489.6603866999503,489.6603866999503,c,1,0.2641392997466028,455576,001,2022-10-12_19h30.28.624,sequential leraning task,2022.2.4,60.025126527606204,
50,c,,,,,14,3,59,2,489.9435787999537,490.94348959997296,490.94348959997296,490.94348959997296,490.94348959997296,490.94348959997296,491.94350829999894,491.94350829999894,c,1,0.36949519999325275,455576,001,2022-10-12_19h30.28.624,sequential leraning task,2022.2.4,60.025126527606204,
-150,z,,,,,15,0,60,3,492.3434858000837,493.34374339994974,493.34374339994974,493.34374339994974,493.34374339994974,493.34374339994974,494.343524399912,494.343524399912,z,1,0.4443534999154508,455576,001,2022-10-12_19h30.28.624,sequential leraning task,2022.2.4,60.025126527606204,
-50,x,,,,,15,1,61,0,494.810171399964,495.81040910002775,495.81040910002775,495.81040910002775,495.81040910002775,495.81040910002775,496.81015300005674,496.81015300005674,x,1,0.43928049970418215,455576,001,2022-10-12_19h30.28.624,sequential leraning task,2022.2.4,60.025126527606204,
-150,z,,,,,15,2,62,3,497.2766525999177,498.27705639996566,498.27705639996566,498.27705639996566,498.27705639996566,498.27705639996566,499.2767936999444,499.2767936999444,z,1,0.3656691999640316,455576,001,2022-10-12_19h30.28.624,sequential leraning task,2022.2.4,60.025126527606204,
-50,x,,,,,15,3,63,0,499.66017560008913,500.66026740008965,500.66026740008965,500.66026740008965,500.66026740008965,500.66026740008965,501.66035329992883,501.66035329992883,x,1,0.41658259998075664,455576,001,2022-10-12_19h30.28.624,sequential leraning task,2022.2.4,60.025126527606204,
150,v,,,,,16,0,64,1,502.09347299998626,503.0936588998884,503.0936588998884,503.0936588998884,503.0936588998884,503.0936588998884,504.0935366998892,504.0935366998892,v,1,1.0970471997279674,455576,001,2022-10-12_19h30.28.624,sequential leraning task,2022.2.4,60.025126527606204,
150,v,,,,,16,1,65,1,505.21040960005485,506.210107000079,506.210107000079,506.210107000079,506.210107000079,506.210107000079,507.2103416000027,507.2103416000027,v,1,0.4238668999169022,455576,001,2022-10-12_19h30.28.624,sequential leraning task,2022.2.4,60.025126527606204,
-150,z,,,,,16,2,66,3,507.66028519999236,508.6601054999046,508.6601054999046,508.6601054999046,508.6601054999046,508.6601054999046,509.66015330003574,509.66015330003574,z,1,0.8085076997522265,455576,001,2022-10-12_19h30.28.624,sequential leraning task,2022.2.4,60.025126527606204,
150,v,,,,,16,3,67,1,510.4935087999329,511.49347739992663,511.49347739992663,511.49347739992663,511.49347739992663,511.49347739992663,512.4936418998986,512.4936418998986,v,1,0.5107086999341846,455576,001,2022-10-12_19h30.28.624,sequential leraning task,2022.2.4,60.025126527606204,
50,c,,,,,17,0,68,2,513.0266253000591,514.0270964999218,514.0270964999218,514.0270964999218,514.0270964999218,514.0270964999218,515.026754999999,515.026754999999,c,1,0.2983267998788506,455576,001,2022-10-12_19h30.28.624,sequential leraning task,2022.2.4,60.025126527606204,
-50,x,,,,,17,1,69,0,515.3436257001013,516.3436131000053,516.3436131000053,516.3436131000053,516.3436131000053,516.3436131000053,517.3434526999481,517.3434526999481,x,1,0.4870722000487149,455576,001,2022-10-12_19h30.28.624,sequential leraning task,2022.2.4,60.025126527606204,
-150,z,,,,,17,2,70,3,517.8600892999675,518.8603318000678,518.8603318000678,518.8603318000678,518.8603318000678,518.8603318000678,519.8601327000652,519.8601327000652,z,1,1.1331412999425083,455576,001,2022-10-12_19h30.28.624,sequential leraning task,2022.2.4,60.025126527606204,
-150,z,,,,,17,3,71,3,521.0102287000045,522.0100859000813,522.0100859000813,522.0100859000813,522.0100859000813,522.0100859000813,523.0104473999236,523.0104473999236,z,1,0.47532229986973107,455576,001,2022-10-12_19h30.28.624,sequential leraning task,2022.2.4,60.025126527606204,
150,v,,,,,18,0,72,1,523.5101193001028,524.5103599999566,524.5103599999566,524.5103599999566,524.5103599999566,524.5103599999566,525.510006400058,525.510006400058,v,1,0.7415721998549998,455576,001,2022-10-12_19h30.28.624,sequential leraning task,2022.2.4,60.025126527606204,
50,c,,,,,18,1,73,2,526.2771854000166,527.276809199946,527.276809199946,527.276809199946,527.276809199946,527.276809199946,528.276822600048,528.276822600048,c,1,2.2231250000186265,455576,001,2022-10-12_19h30.28.624,sequential leraning task,2022.2.4,60.025126527606204,
50,c,,,,,18,2,74,2,530.5270086000673,531.5267952999566,531.5267952999566,531.5267952999566,531.5267952999566,531.5267952999566,532.5269853000063,532.5269853000063,c,1,1.4661754998378456,455576,001,2022-10-12_19h30.28.624,sequential leraning task,2022.2.4,60.025126527606204,
-150,z,,,,,18,3,75,3,534.010292199906,535.010160200065,535.010160200065,535.010160200065,535.010160200065,535.010160200065,536.0102971000597,536.0102971000597,z,1,0.3127211998216808,455576,001,2022-10-12_19h30.28.624,sequential leraning task,2022.2.4,60.025126527606204,
150,v,,,,,19,0,76,1,536.34343550005,537.3436346000526,537.3436346000526,537.3436346000526,537.3436346000526,537.3436346000526,538.3434198999312,538.3434198999312,v,1,0.30648649972863495,455576,001,2022-10-12_19h30.28.624,sequential leraning task,2022.2.4,60.025126527606204,
-150,z,,,,,19,1,77,3,538.6767184000928,539.6767645999789,539.6767645999789,539.6767645999789,539.6767645999789,539.6767645999789,540.6768475999124,540.6768475999124,x,0,0.28550759982317686,455576,001,2022-10-12_19h30.28.624,sequential leraning task,2022.2.4,60.025126527606204,
-50,x,,,,,19,2,78,0,540.9935862000566,541.9934054999612,541.9934054999612,541.9934054999612,541.9934054999612,541.9934054999612,542.9935490998905,542.9935490998905,z,0,0.37460599979385734,455576,001,2022-10-12_19h30.28.624,sequential leraning task,2022.2.4,60.025126527606204,
150,v,,,,,19,3,79,1,543.3934458000585,544.3934112999123,544.3934112999123,544.3934112999123,544.3934112999123,544.3934112999123,545.3934386000037,545.3934386000037,v,1,0.27672379999421537,455576,001,2022-10-12_19h30.28.624,sequential leraning task,2022.2.4,60.025126527606204,
150,v,,,,,20,0,80,1,545.6934042000212,546.6936198999174,546.6936198999174,546.6936198999174,546.6936198999174,546.6936198999174,547.6934325001203,547.6934325001203,v,1,0.39842119975946844,455576,001,2022-10-12_19h30.28.624,sequential leraning task,2022.2.4,60.025126527606204,
50,c,,,,,20,1,81,2,548.1100667000283,549.1103087998927,549.1103087998927,549.1103087998927,549.1103087998927,549.1103087998927,550.1100981999189,550.1100981999189,c,1,0.3713442999869585,455576,001,2022-10-12_19h30.28.624,sequential leraning task,2022.2.4,60.025126527606204,
-50,x,,,,,20,2,82,0,550.5101791999768,551.510277699912,551.510277699912,551.510277699912,551.510277699912,551.510277699912,552.5100811999291,552.5100811999291,x,1,0.47215339983813465,455576,001,2022-10-12_19h30.28.624,sequential leraning task,2022.2.4,60.025126527606204,
-150,z,,,,,20,3,83,3,553.0103033001069,554.0104708999861,554.0104708999861,554.0104708999861,554.0104708999861,554.0104708999861,555.0102796000428,555.0102796000428,z,1,0.24897319986484945,455576,001,2022-10-12_19h30.28.624,sequential leraning task,2022.2.4,60.025126527606204,
150,v,,,,,21,0,84,1,555.2768570000771,556.2767560000066,556.2767560000066,556.2767560000066,556.2767560000066,556.2767560000066,557.2770120000932,557.2770120000932,c,0,0.331953999819234,455576,001,2022-10-12_19h30.28.624,sequential leraning task,2022.2.4,60.025126527606204,
-50,x,,,,,21,1,85,0,557.626924399985,558.6267536000814,558.6267536000814,558.6267536000814,558.6267536000814,558.6267536000814,559.6269163000397,559.6269163000397,x,1,0.3697172999382019,455576,001,2022-10-12_19h30.28.624,sequential leraning task,2022.2.4,60.025126527606204,
50,c,,,,,21,2,86,2,560.0267787999474,561.0269567999057,561.0269567999057,561.0269567999057,561.0269567999057,561.0269567999057,562.0266511999071,562.0266511999071,c,1,0.2666322998702526,455576,001,2022-10-12_19h30.28.624,sequential leraning task,2022.2.4,60.025126527606204,
150,v,,,,,21,3,87,1,562.3100543001201,563.3099958000239,563.3099958000239,563.3099958000239,563.3099958000239,563.3099958000239,564.3103181000333,564.3103181000333,v,1,0.30770789994858205,455576,001,2022-10-12_19h30.28.624,sequential leraning task,2022.2.4,60.025126527606204,
-50,x,,,,,22,0,88,0,564.6434220001101,565.6435656000394,565.6435656000394,565.6435656000394,565.6435656000394,565.6435656000394,566.643451699987,566.643451699987,x,1,0.38727899990044534,455576,001,2022-10-12_19h30.28.624,sequential leraning task,2022.2.4,60.025126527606204,
-50,x,,,,,22,1,89,0,567.060096600093,568.0600342999678,568.0600342999678,568.0600342999678,568.0600342999678,568.0600342999678,569.0599229000509,569.0599229000509,x,1,0.3597486999351531,455576,001,2022-10-12_19h30.28.624,sequential leraning task,2022.2.4,60.025126527606204,
-150,z,,,,,22,2,90,3,569.4434597999789,570.443427799968,570.443427799968,570.443427799968,570.443427799968,570.443427799968,571.4436796999071,571.4436796999071,z,1,0.36457859980873764,455576,001,2022-10-12_19h30.28.624,sequential leraning task,2022.2.4,60.025126527606204,
150,v,,,,,22,3,91,1,571.826751699904,572.8269650000148,572.8269650000148,572.8269650000148,572.8269650000148,572.8269650000148,573.8266982000787,573.8266982000787,v,1,0.3814489997457713,455576,001,2022-10-12_19h30.28.624,sequential leraning task,2022.2.4,60.025126527606204,
150,v,,,,,23,0,92,1,574.2267410000786,575.2267857999541,575.2267857999541,575.2267857999541,575.2267857999541,575.2267857999541,576.2269633999094,576.2269633999094,v,1,0.3428708997089416,455576,001,2022-10-12_19h30.28.624,sequential leraning task,2022.2.4,60.025126527606204,
50,c,,,,,23,1,93,2,576.5936374999583,577.5934470000211,577.5934470000211,577.5934470000211,577.5934470000211,577.5934470000211,578.5934156998992,578.5934156998992,c,1,0.6028767998795956,455576,001,2022-10-12_19h30.28.624,sequential leraning task,2022.2.4,60.025126527606204,
-50,x,,,,,23,2,94,0,579.2267348000314,580.2269669999368,580.2269669999368,580.2269669999368,580.2269669999368,580.2269669999368,581.226687300019,581.226687300019,x,1,0.39548449986614287,455576,001,2022-10-12_19h30.28.624,sequential leraning task,2022.2.4,60.025126527606204,
-150,z,,,,,23,3,95,3,581.6434216001071,582.6436433999334,582.6436433999334,582.6436433999334,582.6436433999334,582.6436433999334,583.6434009999502,583.6434009999502,z,1,0.38539569987915456,455576,001,2022-10-12_19h30.28.624,sequential leraning task,2022.2.4,60.025126527606204,
